STUDYID,DOMAIN,USUBJID,SUBJID,SITEID,AGE,AGEU,SEX,RACE,ARM,ARMCD,ACTARM,COUNTRY,RFSTDTC
STUDY01,DM,STUDY01-001-001,001-001,001,35,YEARS,M,WHITE,DRUGX 100 MG,DRUGX,DRUGX 100 MG,USA,2024-03-01T08:00:00
STUDY01,DM,STUDY01-002-001,002-001,002,42,YEARS,F,ASIAN,DRUGX 100 MG,DRUGX,DRUGX 100 MG,USA,2024-03-01T08:00:00
