STUDYID,DOMAIN,USUBJID,EXSEQ,EXTRT,EXDOSE,EXDOSU,EXROUTE,EXSTDTC,EXENDTC,EXDOSFRQ,VISIT,VISITNUM
STUDY01,EX,STUDY01-001-001,1,DRUGX,100,mg,ORAL,2024-03-01T08:00:00,,QD,Day 1,1
STUDY01,EX,STUDY01-002-001,2,DRUGX,100,mg,ORAL,2024-03-01T08:00:00,,QD,Day 1,1
