STUDYID,DOMAIN,USUBJID,LBSEQ,LBTESTCD,LBTEST,LBSTRESN,LBSTRESU,LBDTC
STUDY01,LB,STUDY01-001-001,1,CREAT,Creatinine,0.9,mg/dL,2024-03-01T07:30:00
STUDY01,LB,STUDY01-001-001,2,CRCL,Creatinine Clearance,98.5,mL/min,2024-03-01T07:30:00
STUDY01,LB,STUDY01-002-001,1,CREAT,Creatinine,0.7,mg/dL,2024-03-01T07:30:00
STUDY01,LB,STUDY01-002-001,2,EGFR,eGFR,85.2,mL/min/1.73m2,2024-03-01T07:30:00
