STUDYID,DOMAIN,USUBJID,PCSEQ,PCTESTCD,PCTEST,PCORRES,PCSTRESC,PCSTRESN,PCSTRESU,PCSPEC,PCDTC,PCELTM,PCTPT,PCTPTNUM,PCTPTREF,VISIT,VISITNUM
STUDY01,PC,STUDY01-001-001,1,DRUGX,Drug X,<0.5,<0.5,,ng/mL,PLASMA,2024-03-01T08:00:00,,PREDOSE,0,FIRST DOSE,Day 1,1
STUDY01,PC,STUDY01-001-001,2,DRUGX,Drug X,12.4,12.4,12.4,ng/mL,PLASMA,2024-03-01T08:30:00,PT0H30M,30 min,0.5,FIRST DOSE,Day 1,1
STUDY01,PC,STUDY01-001-001,3,DRUGX,Drug X,18.7,18.7,18.7,ng/mL,PLASMA,2024-03-01T09:00:00,PT1H0M,1 hr,1,FIRST DOSE,Day 1,1
STUDY01,PC,STUDY01-001-001,4,DRUGX,Drug X,24.3,24.3,24.3,ng/mL,PLASMA,2024-03-01T10:00:00,PT2H0M,2 hr,2,FIRST DOSE,Day 1,1
STUDY01,PC,STUDY01-001-001,5,DRUGX,Drug X,21.1,21.1,21.1,ng/mL,PLASMA,2024-03-01T12:00:00,PT4H0M,4 hr,4,FIRST DOSE,Day 1,1
STUDY01,PC,STUDY01-001-001,6,DRUGX,Drug X,14.8,14.8,14.8,ng/mL,PLASMA,2024-03-01T16:00:00,PT8H0M,8 hr,8,FIRST DOSE,Day 1,1
STUDY01,PC,STUDY01-001-001,7,DRUGX,Drug X,8.2,8.2,8.2,ng/mL,PLASMA,2024-03-01T20:00:00,PT12H0M,12 hr,12,FIRST DOSE,Day 1,1
STUDY01,PC,STUDY01-001-001,8,DRUGX,Drug X,3.1,3.1,3.1,ng/mL,PLASMA,2024-03-02T08:00:00,PT24H0M,24 hr,24,FIRST DOSE,Day 1,1
STUDY01,PC,STUDY01-002-001,9,DRUGX,Drug X,<0.5,<0.5,,ng/mL,PLASMA,2024-03-01T08:00:00,,PREDOSE,0,FIRST DOSE,Day 1,1
STUDY01,PC,STUDY01-002-001,10,DRUGX,Drug X,10.2,10.2,10.2,ng/mL,PLASMA,2024-03-01T08:30:00,PT0H30M,30 min,0.5,FIRST DOSE,Day 1,1
STUDY01,PC,STUDY01-002-001,11,DRUGX,Drug X,16.5,16.5,16.5,ng/mL,PLASMA,2024-03-01T09:00:00,PT1H0M,1 hr,1,FIRST DOSE,Day 1,1
STUDY01,PC,STUDY01-002-001,12,DRUGX,Drug X,22.1,22.1,22.1,ng/mL,PLASMA,2024-03-01T10:00:00,PT2H0M,2 hr,2,FIRST DOSE,Day 1,1
STUDY01,PC,STUDY01-002-001,13,DRUGX,Drug X,19.3,19.3,19.3,ng/mL,PLASMA,2024-03-01T12:00:00,PT4H0M,4 hr,4,FIRST DOSE,Day 1,1
STUDY01,PC,STUDY01-002-001,14,DRUGX,Drug X,13.7,13.7,13.7,ng/mL,PLASMA,2024-03-01T16:00:00,PT8H0M,8 hr,8,FIRST DOSE,Day 1,1
STUDY01,PC,STUDY01-002-001,15,DRUGX,Drug X,7.4,7.4,7.4,ng/mL,PLASMA,2024-03-01T20:00:00,PT12H0M,12 hr,12,FIRST DOSE,Day 1,1
STUDY01,PC,STUDY01-002-001,16,DRUGX,Drug X,2.8,2.8,2.8,ng/mL,PLASMA,2024-03-02T08:00:00,PT24H0M,24 hr,24,FIRST DOSE,Day 1,1
