STUDYID,DOMAIN,USUBJID,VSSEQ,VSTESTCD,VSTEST,VSSTRESN,VSSTRESU,VSDTC
STUDY01,VS,STUDY01-001-001,1,WEIGHT,Body Weight,72.5,kg,2024-03-01T07:30:00
STUDY01,VS,STUDY01-002-001,1,WEIGHT,Body Weight,58.3,kg,2024-03-01T07:30:00
